{
  "resourceType": "CarePlan",
  "id": "48b526340033f89405e245ce87ee68d7d9874110c2ab25d7439dce9a6e5a5a26",
  "meta": {
    "security": [
      {
        "system": "http://terminology.hl7.org/CodeSystem/v3-ObservationValue",
        "code": "REDACTED",
        "display": "redacted"
      },
      {
        "system": "http://terminology.hl7.org/CodeSystem/v3-ObservationValue",
        "code": "CRYTOHASH",
        "display": "cryptographic hash function"
      },
      {
        "code": "PERTURBED",
        "display": "exact value is replaced with another exact value"
      }
    ],
    "tag": [
      {
        "system": "http://terminology.hl7.org/CodeSystem/v3-ActReason"
      }
    ]
  },
  "text": {
    "status": "generated",
    "div": "<div xmlns=\"http://www.w3.org/1999/xhtml\"><p><b>Generated Narrative with Details</b></p><p><b>id</b>: f003</p><p><b>contained</b>: , </p><p><b>identifier</b>: CP3953 (OFFICIAL)</p><p><b>status</b>: completed</p><p><b>intent</b>: plan</p><p><b>subject</b>: <a>P. van de Heuvel</a></p><p><b>period</b>: [DATETIMEV2.DATETIME] --[DATETIMEV2.DATETIMERANGE]</p><p><b>careTeam</b>: id: careteam</p><p><b>addresses</b>: <a>?????</a></p><p><b>goal</b>: id: goal; lifecycleStatus: completed; Achieved <span>(Details : {[URL] code 'achieved' = 'Achieved', given as 'Achieved'})</span>; Retropharyngeal abscess removal <span>(Details )</span>; Annotation: goal accomplished without complications</p><blockquote><p><b>activity</b></p><h3>Details</h3><table><tr><td>-</td><td><b>Kind</b></td><td><b>Code</b></td><td><b>Status</b></td><td><b>DoNotPerform</b></td><td><b>Scheduled[x]</b></td><td><b>Performer</b></td></tr><tr><td>*</td><td>ServiceRequest</td><td>Incision of retropharyngeal abscess <span>(Details : {SNOMED CT code '[PHONENUMBER]' = 'Incision of retropharyngeal abscess', given as 'Incision of retropharyngeal abscess'})</span></td><td>completed</td><td>true</td><td>[DATETIMEV2.DATETIME]+[DATETIMEV2.TIME]</td><td><a>E.M. van den broek</a></td></tr></table></blockquote></div>"
  },
  "contained": [
    {
      "resourceType": "CareTeam",
      "id": "0fae136ac97ce8e657875892245b0b15fd6010968c29145012a053827975a4d9",
      "participant": [
        {
          "member": {
            "reference": "Practitioner/e154849cfc23440dd872169a0e233308324ef3446aaed2008e38a91bc90a0fbf"
          }
        }
      ]
    },
    {
      "resourceType": "Goal",
      "id": "6f0c69aac4e45af139817fb9746b84ab5f02e05aabf3337980d5a19326fb2400",
      "lifecycleStatus": "completed",
      "achievementStatus": {
        "coding": [
          {
            "system": "http://terminology.hl7.org/CodeSystem/goal-achievement"
          }
        ]
      },
      "subject": {
        "reference": "Patient/e154849cfc23440dd872169a0e233308324ef3446aaed2008e38a91bc90a0fbf"
      }
    }
  ],
  "identifier": [
    {
      "use": "official",
      "system": "http://www.bmc.nl/zorgportal/identifiers/careplans"
    }
  ],
  "status": "completed",
  "intent": "plan",
  "subject": {
    "reference": "Patient/e154849cfc23440dd872169a0e233308324ef3446aaed2008e38a91bc90a0fbf"
  },
  "period": {
    "start": "2013-03-08T00:00:00+01:00",
    "end": "2013-03-08T00:00:00+01:00"
  },
  "careTeam": [
    {
      "reference": "#0fae136ac97ce8e657875892245b0b15fd6010968c29145012a053827975a4d9"
    }
  ],
  "addresses": [
    {
      "reference": "Condition/29526e42006de74ac47f060db980338cee1359f850a799060fa85bf82bf6602d"
    }
  ],
  "goal": [
    {
      "reference": "#6f0c69aac4e45af139817fb9746b84ab5f02e05aabf3337980d5a19326fb2400"
    }
  ],
  "activity": [
    {
      "detail": {
        "kind": "ServiceRequest",
        "code": {
          "coding": [
            {
              "system": "http://snomed.info/sct"
            }
          ]
        },
        "status": "completed",
        "doNotPerform": true,
        "performer": [
          {
            "reference": "Practitioner/e154849cfc23440dd872169a0e233308324ef3446aaed2008e38a91bc90a0fbf"
          }
        ]
      }
    }
  ]
}