{
  "resourceType": "CarePlan",
  "id": "044c22849d8baf6719abb57b64e02841fee0422c1f380bb7c63e31a0db8a9988",
  "meta": {
    "security": [
      {
        "system": "http://terminology.hl7.org/CodeSystem/v3-ObservationValue",
        "code": "REDACTED",
        "display": "redacted"
      },
      {
        "system": "http://terminology.hl7.org/CodeSystem/v3-ObservationValue",
        "code": "CRYTOHASH",
        "display": "cryptographic hash function"
      },
      {
        "code": "PERTURBED",
        "display": "exact value is replaced with another exact value"
      }
    ],
    "tag": [
      {
        "system": "http://terminology.hl7.org/CodeSystem/v3-ActReason"
      }
    ]
  },
  "text": {
    "status": "generated",
    "div": "<div xmlns=\"http://www.w3.org/1999/xhtml\"><p><b>Generated Narrative with Details</b></p><p><b>id</b>: f003</p><p><b>contained</b>: , </p><p><b>identifier</b>: CP3953 (OFFICIAL)</p><p><b>status</b>: completed</p><p><b>intent</b>: plan</p><p><b>subject</b>: <a>P. van de Heuvel</a></p><p><b>period</b>: [DATETIMEV2.DATETIME] --[DATETIMEV2.DATETIMERANGE]</p><p><b>careTeam</b>: id: careteam</p><p><b>addresses</b>: <a>?????</a></p><p><b>goal</b>: id: goal; lifecycleStatus: completed; Achieved <span>(Details : {[URL] code 'achieved' = 'Achieved', given as 'Achieved'})</span>; Retropharyngeal abscess removal <span>(Details )</span>; Annotation: goal accomplished without complications</p><blockquote><p><b>activity</b></p><h3>Details</h3><table><tr><td>-</td><td><b>Kind</b></td><td><b>Code</b></td><td><b>Status</b></td><td><b>DoNotPerform</b></td><td><b>Scheduled[x]</b></td><td><b>Performer</b></td></tr><tr><td>*</td><td>ServiceRequest</td><td>Incision of retropharyngeal abscess <span>(Details : {SNOMED CT code '[ID]' = 'Incision of retropharyngeal abscess', given as 'Incision of retropharyngeal abscess'})</span></td><td>completed</td><td>true</td><td>[DATETIMEV2.DATETIME]+[DATETIMEV2.TIME]</td><td><a>E.M. van den broek</a></td></tr></table></blockquote></div>"
  },
  "contained": [
    {
      "resourceType": "CareTeam",
      "id": "58424791c4dd3e7334d633f8549cf13b74a4a9be25bd9551f2535af7ce6f0446",
      "participant": [
        {
          "member": {
            "reference": "Practitioner/349329ac490488ebf99fb7a72bfdcef1077acb4b637f199072506db33f073ea8"
          }
        }
      ]
    },
    {
      "resourceType": "Goal",
      "id": "53c4ab6e74ce5222efa8e8066f0602608a2d089886503a827748cb192009364e",
      "lifecycleStatus": "completed",
      "achievementStatus": {
        "coding": [
          {
            "system": "http://terminology.hl7.org/CodeSystem/goal-achievement"
          }
        ]
      },
      "subject": {
        "reference": "Patient/349329ac490488ebf99fb7a72bfdcef1077acb4b637f199072506db33f073ea8"
      }
    }
  ],
  "identifier": [
    {
      "use": "official",
      "system": "http://www.bmc.nl/zorgportal/identifiers/careplans"
    }
  ],
  "status": "completed",
  "intent": "plan",
  "subject": {
    "reference": "Patient/349329ac490488ebf99fb7a72bfdcef1077acb4b637f199072506db33f073ea8"
  },
  "period": {
    "start": "2013-01-28T00:00:00+01:00",
    "end": "2013-01-28T00:00:00+01:00"
  },
  "careTeam": [
    {
      "reference": "#58424791c4dd3e7334d633f8549cf13b74a4a9be25bd9551f2535af7ce6f0446"
    }
  ],
  "addresses": [
    {
      "reference": "Condition/9bbf5ab421b9cf222532a62d16703b39b2a52819eab72e9eef82a62003908fa5"
    }
  ],
  "goal": [
    {
      "reference": "#53c4ab6e74ce5222efa8e8066f0602608a2d089886503a827748cb192009364e"
    }
  ],
  "activity": [
    {
      "detail": {
        "kind": "ServiceRequest",
        "code": {
          "coding": [
            {
              "system": "http://snomed.info/sct"
            }
          ]
        },
        "status": "completed",
        "doNotPerform": true,
        "performer": [
          {
            "reference": "Practitioner/349329ac490488ebf99fb7a72bfdcef1077acb4b637f199072506db33f073ea8"
          }
        ]
      }
    }
  ]
}