{
  "resourceType": "CarePlan",
  "id": "f3de61d7fdcd1d1e11e18c31a47e6e018fa93d630b806b943632de5f4be1e485",
  "meta": {
    "security": [
      {
        "system": "http://terminology.hl7.org/CodeSystem/v3-ObservationValue",
        "code": "REDACTED",
        "display": "redacted"
      },
      {
        "system": "http://terminology.hl7.org/CodeSystem/v3-ObservationValue",
        "code": "CRYTOHASH",
        "display": "cryptographic hash function"
      },
      {
        "code": "PERTURBED",
        "display": "exact value is replaced with another exact value"
      }
    ],
    "tag": [
      {
        "system": "http://terminology.hl7.org/CodeSystem/v3-ActReason"
      }
    ]
  },
  "text": {
    "status": "generated",
    "div": "<div xmlns=\"http://www.w3.org/1999/xhtml\"><p><b>Generated Narrative with Details</b></p><p><b>id</b>: f003</p><p><b>contained</b>: , </p><p><b>identifier</b>: CP3953 (OFFICIAL)</p><p><b>status</b>: completed</p><p><b>intent</b>: plan</p><p><b>subject</b>: <a>P. van de Heuvel</a></p><p><b>period</b>: [DATETIMEV2.DATETIME] --[DATETIMEV2.DATETIMERANGE]</p><p><b>careTeam</b>: id: careteam</p><p><b>addresses</b>: <a>?????</a></p><p><b>goal</b>: id: goal; lifecycleStatus: completed; Achieved <span>(Details : {[URL] code 'achieved' = 'Achieved', given as 'Achieved'})</span>; Retropharyngeal abscess removal <span>(Details )</span>; Annotation: goal accomplished without complications</p><blockquote><p><b>activity</b></p><h3>Details</h3><table><tr><td>-</td><td><b>Kind</b></td><td><b>Code</b></td><td><b>Status</b></td><td><b>DoNotPerform</b></td><td><b>Scheduled[x]</b></td><td><b>Performer</b></td></tr><tr><td>*</td><td>ServiceRequest</td><td>Incision of retropharyngeal abscess <span>(Details : {SNOMED CT code '172960003' = 'Incision of retropharyngeal abscess', given as 'Incision of retropharyngeal abscess'})</span></td><td>completed</td><td>true</td><td>[DATETIME]</td><td><a>E.M. van den broek</a></td></tr></table></blockquote></div>"
  },
  "contained": [
    {
      "resourceType": "CareTeam",
      "id": "cd91f4e393a97f66df89b39d0b0e435d790e25a115afaffc0b73ea4247d2ed77",
      "participant": [
        {
          "member": {
            "reference": "Practitioner/a1321d328fc751f5b874c7bb1ad73fc620c31ea55490ad828d59712bb1f358bc"
          }
        }
      ]
    },
    {
      "resourceType": "Goal",
      "id": "dad67da125237554a862e21ab30563fee33284c33d00ca72ea2db4122d5e0a92",
      "lifecycleStatus": "completed",
      "achievementStatus": {
        "coding": [
          {
            "system": "http://terminology.hl7.org/CodeSystem/goal-achievement"
          }
        ]
      },
      "subject": {
        "reference": "Patient/a1321d328fc751f5b874c7bb1ad73fc620c31ea55490ad828d59712bb1f358bc"
      }
    }
  ],
  "identifier": [
    {
      "use": "official",
      "system": "http://www.bmc.nl/zorgportal/identifiers/careplans"
    }
  ],
  "status": "completed",
  "intent": "plan",
  "subject": {
    "reference": "Patient/a1321d328fc751f5b874c7bb1ad73fc620c31ea55490ad828d59712bb1f358bc"
  },
  "period": {
    "start": "2013-04-15T00:00:00+01:00",
    "end": "2013-04-15T00:00:00+01:00"
  },
  "careTeam": [
    {
      "reference": "#cd91f4e393a97f66df89b39d0b0e435d790e25a115afaffc0b73ea4247d2ed77"
    }
  ],
  "addresses": [
    {
      "reference": "Condition/81720f5ad59cfd0eb65ab08fea14cdeb5c73266da8a29ced4226bcc23cd0431f"
    }
  ],
  "goal": [
    {
      "reference": "#dad67da125237554a862e21ab30563fee33284c33d00ca72ea2db4122d5e0a92"
    }
  ],
  "activity": [
    {
      "detail": {
        "kind": "ServiceRequest",
        "code": {
          "coding": [
            {
              "system": "http://snomed.info/sct"
            }
          ]
        },
        "status": "completed",
        "doNotPerform": true,
        "performer": [
          {
            "reference": "Practitioner/a1321d328fc751f5b874c7bb1ad73fc620c31ea55490ad828d59712bb1f358bc"
          }
        ]
      }
    }
  ]
}